Folder: DATA_ANALYTICS/PHD_DISSERTATION/RMD Files PhD/DMA

Note: README.md
# DATA_ANALYTICS
Python, R, SQL, Excel, etc. Bioinformatics and other stuff

File: fabian's hydrogel_25-60_5c min.csv
Time,Sample Temperature,Program Temperature,Frequency,Raw Dynamic Force,Raw Static Force,In-Phase Angle,Out-Of-Phase Angle,Zero Displacement,Min Displacement,Max Displacement,Spring Stiffness,C*,Measured Tan Delta,Corrected Total Tan Delta,Corrected Total Delta,Stiffness*,Total Stiffness',Stiffness Less Spring,Inertia,Sample Stiffness',Ratio of Sample to Total Stiffness,Total Stiffness'',Sample Stiffness'',Total Applied Static Force,Static Force,Static Force Corrected,Static Displacement,Static Displacement Corrected,Static Stress,Static Stress Corrected,Static Strain,Static Strain Corrected,Dynamic Force,Displacement Amplitude,Dynamic Stress,Dynamic Strain,Storage Modulus,Loss Modulus,Tan Delta,Loss Viscosity,Storage Viscosity,Complex Viscosity,Shear Storage Modulus,Shear Loss Modulus,Complex Modulus,Shear Complex Modulus,
0.000000,22.6625,25,1.000001,55,2390,1.00772e+06,23287.4,5.96037e+07,56647.5,59746.8,0.000052,1.00799e+06,0.023109,0.010194,0.010193,3223.76,3225.22,158.407,1.697535,160.105,0.049615,32.8935,30.9014,1.996563,0.289362,0.000585,0.745374,0.000140,623351,1259.32,0.009546,0.000002,0.007942,0.049651,17109.1,0.000636,2.69301e+07,5.19771e+06,0.193007,827241,4.28606e+06,4.36516e+06,9.97412e+06,1.92508e+06,2.74271e+07,1.01582e+07,
0.388409,23.9,25,1.000001,55,2390,1.008e+06,23322.1,5.96045e+07,56649.4,59747.2,0.000052,1.00827e+06,0.023137,0.010222,0.010221,3222.86,3224.32,157.463,1.697535,159.16,0.049336,32.9746,30.9824,1.996563,0.289466,0.000689,0.745399,0.000165,623576,1483.86,0.009547,0.000002,0.007898,0.049665,17013,0.000636,2.67713e+07,5.21134e+06,0.194662,829409,4.26077e+06,4.34075e+06,9.91528e+06,1.93012e+06,2.72738e+07,1.01014e+07,
0.776303,24.3,25,1.000001,55,2390,1.00838e+06,23253.6,5.96056e+07,56649.2,59752,0.000052,1.00865e+06,0.023060,0.010145,0.010145,3221.65,3223.11,156.203,1.697535,157.901,0.048964,32.7152,30.7229,1.996563,0.289614,0.000837,0.745434,0.000200,623895,1802.71,0.009547,0.000003,0.007838,0.049683,16884.7,0.000636,2.65594e+07,5.1677e+06,0.194571,822464,4.22706e+06,4.30633e+06,9.83683e+06,1.91396e+06,2.70575e+07,1.00213e+07,
1.181615,24.4,25.6552,1.000001,55,2390,1.00867e+06,23189.8,5.9607e+07,56648.9,59752.8,0.000052,1.00894e+06,0.022990,0.010075,0.010075,3220.72,3222.18,155.208,1.697535,156.905,0.048670,32.4799,30.4877,1.996563,0.289789,0.001011,0.745476,0.000242,624270,2178.53,0.009548,0.000003,0.007791,0.049698,16783.1,0.000636,2.6392e+07,5.12812e+06,0.194306,816166,4.20041e+06,4.27896e+06,9.7748e+06,1.89931e+06,2.68855e+07,9.95761e+06,
1.585886,24.825,27.6765,1.000001,55,2390,1.00892e+06,23183.6,5.9608e+07,56648.1,59751.6,0.000052,1.00919e+06,0.022979,0.010063,0.010063,3219.93,3221.39,154.37,1.697535,156.068,0.048422,32.4343,30.442,1.996563,0.289925,0.001148,0.745509,0.000275,624565,2473.28,0.009548,0.000004,0.007751,0.049710,16697.6,0.000637,2.62512e+07,5.12044e+06,0.195056,814943,4.178e+06,4.25673e+06,9.72265e+06,1.89646e+06,2.67459e+07,9.90588e+06,
1.989118,26.6625,29.6927,1.000001,55,2390,1.00945e+06,23023.4,5.96086e+07,56648,59755.1,0.000052,1.00971e+06,0.022808,0.009893,0.009892,3218.24,3219.71,152.662,1.697535,154.36,0.047917,31.8672,29.8749,1.996563,0.290006,0.001229,0.745528,0.000294,624739,2646.92,0.009548,0.000004,0.007670,0.049736,16523.5,0.000637,2.59638e+07,5.02506e+06,0.193541,799762,4.13226e+06,4.20894e+06,9.61622e+06,1.86113e+06,2.64456e+07,9.79467e+06,
2.392869,29.2125,31.7114,1.000001,55,2390,1.01052e+06,22807.1,5.96099e+07,56650.5,59758.1,0.000052,1.01077e+06,0.022570,0.009655,0.009654,3214.87,3216.34,149.238,1.697535,150.936,0.046903,31.0683,29.0759,1.996563,0.290166,0.001388,0.745566,0.000333,625083,2990.89,0.009549,0.000004,0.007508,0.049788,16173.9,0.000638,2.53879e+07,4.89066e+06,0.192638,778373,4.04061e+06,4.1149e+06,9.40293e+06,1.81136e+06,2.58547e+07,9.5758e+06,
2.785963,31.5125,33.6769,1.000001,55,2390,1.01175e+06,22632.2,5.96118e+07,56649,59759.4,0.000052,1.012e+06,0.022369,0.009454,0.009454,3210.97,3212.44,145.246,1.697535,146.944,0.045718,30.3869,28.3945,1.996563,0.290418,0.001641,0.745627,0.000393,625627,3534.92,0.009549,0.000005,0.007318,0.049849,15765.2,0.000638,2.47164e+07,4.77604e+06,0.193234,760130,3.93374e+06,4.0065e+06,9.15423e+06,1.7689e+06,2.51736e+07,9.32357e+06,
3.205312,33.725,35.7736,1.000001,55,2390,1.01325e+06,22485,5.96134e+07,56642.6,59772.4,0.000052,1.0135e+06,0.022191,0.009276,0.009276,3206.23,3207.7,140.433,1.697535,142.13,0.044286,29.7697,27.7772,1.996563,0.290636,0.001858,0.745679,0.000445,626096,4003.56,0.009550,0.000006,0.007089,0.049923,15271.3,0.000639,2.39068e+07,4.67222e+06,0.195435,743607,3.80488e+06,3.87686e+06,8.85436e+06,1.73045e+06,2.43591e+07,9.02188e+06,
3.625444,35.925,37.8743,1.000001,55,2390,1.01435e+06,22232.2,5.96163e+07,56649.2,59769.9,0.000052,1.01459e+06,0.021918,0.009003,0.009003,3202.78,3204.26,136.854,1.697535,138.551,0.043217,28.8622,26.8697,1.996563,0.291010,0.002233,0.745769,0.000535,626902,4810.13,0.009551,0.000007,0.006918,0.049977,14902.7,0.000640,2.33048e+07,4.51957e+06,0.193933,719311,3.70906e+06,3.77817e+06,8.63139e+06,1.67391e+06,2.3739e+07,8.79221e+06,
4.030496,38.0125,39.8996,1.000001,55,2390,1.01557e+06,22094.8,5.96187e+07,56650.8,59775.5,0.000052,1.01581e+06,0.021756,0.008841,0.008841,3198.95,3200.42,132.907,1.697535,134.605,0.042036,28.3101,26.3175,1.996563,0.291327,0.002550,0.745844,0.000611,627585,5492.55,0.009552,0.000008,0.006729,0.050037,14495.6,0.000641,2.2641e+07,4.42668e+06,0.195517,704528,3.60342e+06,3.67164e+06,8.38554e+06,1.63951e+06,2.30696e+07,8.54431e+06,
4.451148,40.3625,42.0028,1.000001,55,2390,1.01688e+06,22052.5,5.96221e+07,56650.8,59779.2,0.000052,1.01712e+06,0.021686,0.008772,0.008771,3194.8,3196.28,128.605,1.697535,130.303,0.040745,28.0504,26.0577,1.996563,0.291768,0.002991,0.745950,0.000716,628535,6443.31,0.009554,0.000009,0.006522,0.050102,14050.5,0.000642,2.19173e+07,4.38299e+06,0.199978,697574,3.48825e+06,3.55732e+06,8.11753e+06,1.62333e+06,2.23513e+07,8.27826e+06,
4.876478,42.5125,44.1295,1.000001,55,2390,1.01844e+06,21878.1,5.96251e+07,56651.2,59781.8,0.000052,1.01867e+06,0.021482,0.008567,0.008567,3189.95,3191.43,123.616,1.697535,125.314,0.039245,27.3559,25.3631,1.996563,0.292155,0.003377,0.746043,0.000809,629367,7275.09,0.009555,0.000010,0.006282,0.050178,13533,0.000643,2.10782e+07,4.26615e+06,0.202397,678979,3.35469e+06,3.42271e+06,7.80673e+06,1.58006e+06,2.15056e+07,7.96502e+06,
5.314808,44.4875,46.3211,1.000001,55,2390,1.01975e+06,21863.8,5.96282e+07,56652.8,59787.6,0.000052,1.01999e+06,0.021440,0.008526,0.008525,3185.83,3187.3,119.347,1.697535,121.045,0.037957,27.1871,25.1942,1.996563,0.292564,0.003786,0.746140,0.000907,630248,8156.21,0.009556,0.000012,0.006076,0.050243,13088.9,0.000643,2.03601e+07,4.23774e+06,0.208139,674457,3.24041e+06,3.30986e+06,7.54079e+06,1.56953e+06,2.07965e+07,7.7024e+06,
5.751058,46.7375,48.5024,1.000001,55,2390,1.02147e+06,21767,5.96326e+07,56653,59794.4,0.000052,1.0217e+06,0.021310,0.008395,0.008395,3180.5,3181.97,113.807,1.697535,115.505,0.036280,26.7257,24.7326,1.996563,0.293136,0.004359,0.746277,0.001044,631482,9389.65,0.009558,0.000013,0.005808,0.050327,12510.8,0.000645,1.94283e+07,4.16011e+06,0.214126,662102,3.09211e+06,3.1622e+06,7.19567e+06,1.54078e+06,1.98687e+07,7.35878e+06,
6.180029,49.0875,50.6472,1.000001,55,2390,1.02304e+06,21789.4,5.96388e+07,56655.2,59805.2,0.000052,1.02327e+06,0.021299,0.008384,0.008384,3175.61,3177.07,108.621,1.697535,110.319,0.034705,26.65,24.6567,1.996563,0.293960,0.005182,0.746475,0.001241,633256,11164.1,0.009560,0.000016,0.005555,0.050405,11967.5,0.000646,1.8556e+07,4.14735e+06,0.223504,660070,2.95328e+06,3.02614e+06,6.87259e+06,1.53605e+06,1.90138e+07,7.04216e+06,
6.621737,51.2,52.8558,1.000001,55,2390,1.02429e+06,21445.6,5.96444e+07,56662.1,59812.9,0.000052,1.02451e+06,0.020937,0.008023,0.008022,3171.76,3173.24,104.526,1.697535,106.223,0.033457,25.4704,23.477,1.996563,0.294685,0.005908,0.746648,0.001414,634819,12726.5,0.009563,0.000018,0.005356,0.050466,11537.1,0.000646,1.78671e+07,3.94891e+06,0.221016,628487,2.84363e+06,2.91225e+06,6.61743e+06,1.46256e+06,1.82982e+07,6.77713e+06,
7.035108,53.3125,54.9226,1.000001,55,2390,1.02574e+06,21430.9,5.96475e+07,56664.1,59817.9,0.000052,1.02597e+06,0.020893,0.007979,0.007978,3167.26,3168.73,99.8715,1.697535,101.569,0.032036,25.2943,23.3008,1.996563,0.295096,0.006318,0.746746,0.001513,635703,13610.9,0.009564,0.000019,0.005128,0.050538,11047.3,0.000647,1.70842e+07,3.91927e+06,0.229409,623771,2.71904e+06,2.78967e+06,6.3275e+06,1.45158e+06,1.7528e+07,6.49187e+06,
7.472138,55.55,57.1078,1.000001,55,2390,1.02739e+06,21385.6,5.96515e+07,56661.2,59822.9,0.000052,1.02762e+06,0.020815,0.007901,0.007901,3162.18,3163.65,94.6065,1.697535,96.304,0.030424,25.0083,23.0147,1.996563,0.295616,0.006839,0.746871,0.001637,636824,14731.8,0.009565,0.000021,0.004870,0.050619,10491.5,0.000648,1.61986e+07,3.87115e+06,0.238980,616112,2.57809e+06,2.65069e+06,5.9995e+06,1.43376e+06,1.66548e+07,6.16844e+06,
7.880570,57.7875,59.1499,1.000001,55,2390,1.02811e+06,21126.6,5.96557e+07,56665.4,59830.8,0.000052,1.02833e+06,0.020549,0.007635,0.007634,3159.98,3161.45,92.2125,1.697535,93.9101,0.029689,24.1483,22.1545,1.996563,0.296173,0.007395,0.747004,0.001770,638023,15931.2,0.009567,0.000023,0.004752,0.050654,10237.8,0.000649,1.5796e+07,3.72646e+06,0.235912,593085,2.51401e+06,2.58302e+06,5.85036e+06,1.38017e+06,1.62296e+07,6.01096e+06,
8.343596,59.85,61.4651,1.000001,55,2390,1.02878e+06,21117.6,5.9658e+07,56668.1,59830.8,0.000052,1.029e+06,0.020527,0.007613,0.007612,3157.94,3159.41,90.0621,1.697535,91.7596,0.029028,24.063,22.0692,1.996563,0.296467,0.007690,0.747074,0.001841,638657,16565.3,0.009568,0.000024,0.004647,0.050687,10009.8,0.000649,1.54343e+07,3.7121e+06,0.240511,590799,2.45644e+06,2.52649e+06,5.7164e+06,1.37485e+06,1.58744e+07,5.8794e+06,