Folder: DATA_ANALYTICS/CSV_DISSERTATION/RMD Files PhD/DMA

Note: README.md
# DATA_ANALYTICS
Python, R, SQL, Excel, etc. Bioinformatics and other stuff

File: fabian's hydrogel_25-60_2c min.csv
Time,Sample Temperature,Program Temperature,Frequency,Raw Dynamic Force,Raw Static Force,In-Phase Angle,Out-Of-Phase Angle,Zero Displacement,Min Displacement,Max Displacement,Spring Stiffness,C*,Measured Tan Delta,Corrected Total Tan Delta,Corrected Total Delta,Stiffness*,Total Stiffness',Stiffness Less Spring,Inertia,Sample Stiffness',Ratio of Sample to Total Stiffness,Total Stiffness'',Sample Stiffness'',Total Applied Static Force,Static Force,Static Force Corrected,Static Displacement,Static Displacement Corrected,Static Stress,Static Stress Corrected,Static Strain,Static Strain Corrected,Dynamic Force,Displacement Amplitude,Dynamic Stress,Dynamic Strain,Storage Modulus,Loss Modulus,Tan Delta,Loss Viscosity,Storage Viscosity,Complex Viscosity,Shear Storage Modulus,Shear Loss Modulus,Complex Modulus,Shear Complex Modulus,
0.000000,25.4,25,1.000001,63,2390,1.02926e+06,50917,5.94895e+07,56485,59660.8,0.000052,1.03052e+06,0.049470,0.036534,0.036518,3611.94,3611.57,550.194,1.697535,551.891,0.152740,132.019,130.031,1.996563,0.274065,0.000000,0.741702,0.000000,378961,0.000000,0.010476,0.000000,0.028006,0.050726,38725.2,0.000716,5.40301e+07,1.273e+07,0.235609,2.02604e+06,8.59915e+06,8.8346e+06,2.00111e+07,4.71481e+06,5.55095e+07,2.05591e+07,
0.826740,25.5,25,1.000001,63,2390,1.02977e+06,50062.1,5.9504e+07,56499.6,59675.9,0.000052,1.03098e+06,0.048615,0.035680,0.035665,3610.3,3610.04,547.994,1.697535,549.691,0.152196,128.88,126.891,1.996563,0.275965,0.001900,0.742159,0.000457,381589,2627.53,0.010482,0.000006,0.027906,0.050751,38587.1,0.000717,5.38147e+07,1.24226e+07,0.230841,1.97712e+06,8.56486e+06,8.7901e+06,1.99314e+07,4.60097e+06,5.52299e+07,2.04555e+07,
1.701579,26.6625,26.7497,1.000001,63,2390,1.03029e+06,49311.8,5.95151e+07,56504.8,59686.8,0.000052,1.03147e+06,0.047862,0.034928,0.034914,3608.59,3608.42,545.862,1.697535,547.56,0.151674,126.106,124.117,1.996563,0.277403,0.003338,0.742505,0.000802,383577,4616.03,0.010487,0.000011,0.027811,0.050776,38454.8,0.000717,5.3606e+07,1.2151e+07,0.226672,1.93389e+06,8.53166e+06,8.74809e+06,1.98541e+07,4.50037e+06,5.49659e+07,2.03577e+07,
2.561599,28.5,28.4697,1.000001,63,2390,1.03337e+06,48485.6,5.95253e+07,56508.4,59700.8,0.000052,1.0345e+06,0.046920,0.033987,0.033974,3598.02,3597.97,534.933,1.697535,536.63,0.149078,122.354,120.364,1.996563,0.278737,0.004672,0.742825,0.001123,385421,6460.21,0.010492,0.000016,0.027335,0.050927,37796.6,0.000719,5.2536e+07,1.17836e+07,0.224296,1.87542e+06,8.36136e+06,8.56911e+06,1.94578e+07,4.3643e+06,5.38413e+07,1.99412e+07,
3.375343,30.1,30.0972,1.000001,61,2390,1.00284e+06,46735,5.95354e+07,56567,59661.5,0.000052,1.00393e+06,0.046603,0.033670,0.033657,3589.89,3589.87,526.364,1.697535,528.061,0.147028,120.939,118.949,1.996563,0.280058,0.005993,0.743142,0.001440,387248,8287.29,0.010496,0.000020,0.026103,0.049423,36093.6,0.000698,5.16971e+07,1.16451e+07,0.225256,1.85337e+06,8.22785e+06,8.434e+06,1.91471e+07,4.31299e+06,5.29925e+07,1.96268e+07,
4.168546,31.625,31.6836,1.000001,61,2390,1.00611e+06,46104.8,5.95441e+07,56568,59674.5,0.000052,1.00717e+06,0.045825,0.032893,0.032881,3578.34,3578.41,514.496,1.697535,516.194,0.144184,117.77,115.779,1.996563,0.281196,0.007131,0.743416,0.001713,388821,9860.47,0.010500,0.000024,0.025598,0.049583,35395.4,0.000700,5.05353e+07,1.13348e+07,0.224294,1.80399e+06,8.04293e+06,8.24276e+06,1.87168e+07,4.19807e+06,5.17909e+07,1.91818e+07,
4.959411,33.3875,33.2653,1.000001,61,2390,1.00967e+06,45396.1,5.9552e+07,56563.4,59697.6,0.000052,1.01069e+06,0.044961,0.032031,0.032020,3565.89,3566.05,501.775,1.697535,503.473,0.141118,114.286,112.296,1.996563,0.282221,0.008156,0.743662,0.001959,390239,11277.9,0.010504,0.000028,0.025054,0.049758,34642.7,0.000703,4.92899e+07,1.09938e+07,0.223043,1.74971e+06,7.84473e+06,8.03749e+06,1.82555e+07,4.07176e+06,5.05011e+07,1.87041e+07,
5.750537,34.9125,34.8476,1.000001,61,2390,1.01341e+06,44740.4,5.95593e+07,56565.6,59699.1,0.000052,1.0144e+06,0.044148,0.031218,0.031208,3552.85,3553.09,488.475,1.697535,490.173,0.137891,110.983,108.992,1.996563,0.283179,0.009114,0.743891,0.002189,391563,12601.7,0.010507,0.000031,0.024481,0.049942,33850.5,0.000705,4.79878e+07,1.06703e+07,0.222355,1.69823e+06,7.6375e+06,7.82402e+06,1.77733e+07,3.95197e+06,4.91598e+07,1.82073e+07,
6.574940,36.4875,36.4964,1.000001,61,2390,1.01721e+06,43995.6,5.95667e+07,56568.8,59713.1,0.000052,1.01816e+06,0.043251,0.030322,0.030313,3539.71,3540.04,475.084,1.697535,476.781,0.134618,107.401,105.41,1.996563,0.284147,0.010082,0.744124,0.002421,392902,13940.9,0.010510,0.000034,0.023900,0.050129,33047,0.000708,4.66768e+07,1.03196e+07,0.221086,1.64241e+06,7.42884e+06,7.60823e+06,1.72877e+07,3.82207e+06,4.7804e+07,1.77052e+07,
7.413900,38.2,38.1743,1.000001,61,2390,1.02081e+06,43515.5,5.95732e+07,56568.9,59725.6,0.000052,1.02174e+06,0.042628,0.029700,0.029691,3527.32,3527.71,462.444,1.697535,464.142,0.131507,104.829,102.838,1.996563,0.284992,0.010927,0.744326,0.002624,394071,15109.7,0.010513,0.000037,0.023347,0.050306,32283.4,0.000711,4.54394e+07,1.00678e+07,0.221566,1.60235e+06,7.2319e+06,7.40729e+06,1.68294e+07,3.72883e+06,4.65414e+07,1.72376e+07,
8.205805,39.775,39.7581,1.000001,61,2390,1.02407e+06,42853.9,5.95789e+07,56569,59735.5,0.000052,1.02497e+06,0.041847,0.028919,0.028911,3516.21,3516.67,451.146,1.697535,452.844,0.128708,101.753,99.7621,1.996563,0.285737,0.011672,0.744505,0.002803,395100,16139.3,0.010515,0.000040,0.022850,0.050466,31596.3,0.000713,4.43333e+07,9.76669e+06,0.220301,1.55442e+06,7.05586e+06,7.22506e+06,1.64198e+07,3.61729e+06,4.53964e+07,1.68135e+07,
8.996413,41.325,41.3393,1.000001,61,2390,1.02701e+06,42370.9,5.95842e+07,56568.2,59743.2,0.000052,1.02788e+06,0.041257,0.028329,0.028322,3506.23,3506.75,440.973,1.697535,442.67,0.126173,99.3975,97.406,1.996563,0.286431,0.012366,0.744671,0.002969,396059,17098.3,0.010518,0.000042,0.022400,0.050611,30973.9,0.000715,4.33374e+07,9.53603e+06,0.220042,1.51771e+06,6.89735e+06,7.06235e+06,1.60509e+07,3.53186e+06,4.43741e+07,1.64349e+07,
9.775578,42.9875,42.8977,1.000001,61,2390,1.0294e+06,42246.5,5.95887e+07,56572.5,59748.4,0.000052,1.03026e+06,0.041040,0.028113,0.028105,3498.13,3498.66,432.682,1.697535,434.38,0.124096,98.4112,96.4196,1.996563,0.287018,0.012953,0.744812,0.003110,396871,17910,0.010520,0.000044,0.022032,0.050728,30464,0.000716,4.25257e+07,9.43947e+06,0.221971,1.50234e+06,6.76818e+06,6.93291e+06,1.57503e+07,3.4961e+06,4.35608e+07,1.61336e+07,
10.5917,44.575,44.5298,1.000001,61,2390,1.03154e+06,42213.6,5.95934e+07,56574.6,59756.8,0.000052,1.0324e+06,0.040923,0.027996,0.027988,3490.88,3491.42,425.215,1.697535,426.912,0.122215,97.7983,95.8065,1.996563,0.287635,0.013570,0.744960,0.003258,397725,18763.7,0.010522,0.000046,0.021698,0.050834,30002.4,0.000718,4.17946e+07,9.37944e+06,0.224417,1.49278e+06,6.65182e+06,6.81727e+06,1.54795e+07,3.47387e+06,4.28342e+07,1.58645e+07,
11.3708,46.1125,46.0882,1.000001,61,2390,1.03189e+06,42747.5,5.95992e+07,56529.5,59831.9,0.000052,1.03277e+06,0.041426,0.028499,0.028491,3489.63,3490.12,423.647,1.697535,425.344,0.121812,99.5188,97.5268,1.996563,0.288387,0.014322,0.745140,0.003438,398765,19804.1,0.010524,0.000049,0.021626,0.050852,29903.3,0.000718,4.16411e+07,9.54786e+06,0.229289,1.51959e+06,6.62738e+06,6.79937e+06,1.54226e+07,3.53624e+06,4.27217e+07,1.58229e+07,
[...]
13.101,49.5375,49.5485,1.000001,59,2390,998756,42502.8,5.96116e+07,56648.6,59727.9,0.000052,999659,0.042556,0.029627,0.029618,3487.02,3487.39,420.349,1.697535,422.046,0.120962,103.378,101.386,1.996563,0.290004,0.015939,0.745528,0.003825,401001,22039.5,0.010530,0.000054,0.020771,0.049219,28721,0.000695,4.13183e+07,9.92563e+06,0.240224,1.57971e+06,6.576e+06,6.76308e+06,1.53031e+07,3.67616e+06,4.24937e+07,1.57384e+07,
13.9701,51.2,51.2868,1.000001,59,2390,1.00266e+06,42936.8,5.96142e+07,56646.5,59735.4,0.000052,1.00358e+06,0.042823,0.029894,0.029885,3473.4,3473.73,406.563,1.697535,408.26,0.117471,103.9,101.907,1.996563,0.290348,0.016283,0.745610,0.003908,401476,22514.8,0.010531,0.000055,0.020172,0.049412,27892.1,0.000698,3.99686e+07,9.97672e+06,0.249614,1.58784e+06,6.3612e+06,6.55638e+06,1.48032e+07,3.69508e+06,4.1195e+07,1.52574e+07,
14.7927,52.9875,52.9319,1.000001,59,2390,1.00592e+06,43343.5,5.96167e+07,56644,59742.4,0.000052,1.00685e+06,0.043088,0.030159,0.030150,3462.1,3462.4,395.119,1.697535,396.816,0.114551,104.48,102.488,1.996563,0.290678,0.016613,0.745689,0.003987,401933,22971.8,0.010532,0.000056,0.019670,0.049573,27198.8,0.000700,3.88482e+07,1.00335e+07,0.258275,1.59688e+06,6.18288e+06,6.38577e+06,1.43882e+07,3.71612e+06,4.0123e+07,1.48604e+07,
15.621,54.6375,54.5885,1.000001,59,2390,1.01075e+06,43685.6,5.96211e+07,56635.8,59754.4,0.000052,1.01169e+06,0.043221,0.030292,0.030283,3445.56,3445.84,378.343,1.697535,380.041,0.110236,104.437,102.445,1.996563,0.291259,0.017194,0.745828,0.004126,402736,23774.7,0.010534,0.000058,0.018929,0.049811,26174.2,0.000704,3.72059e+07,1.00293e+07,0.269563,1.59622e+06,5.9215e+06,6.13287e+06,1.378e+07,3.71457e+06,3.8534e+07,1.42718e+07,
16.4002,56.1375,56.1469,1.000001,59,2390,1.01576e+06,43734.2,5.96257e+07,56631.4,59764.5,0.000052,1.0167e+06,0.043056,0.030127,0.030118,3428.59,3428.87,361.164,1.697535,362.861,0.105773,103.356,101.364,1.996563,0.291860,0.017795,0.745972,0.004270,403566,24605.5,0.010536,0.000060,0.018163,0.050058,25114.6,0.000707,3.55241e+07,9.92347e+06,0.279345,1.57937e+06,5.65382e+06,5.87028e+06,1.31571e+07,3.67536e+06,3.68841e+07,1.36608e+07,
17.1918,57.775,57.7302,1.000001,59,2390,1.01786e+06,44231.5,5.9622e+07,56626.8,59762.8,0.000052,1.01882e+06,0.043455,0.030526,0.030517,3421.45,3421.68,354.148,1.697535,355.845,0.103946,104.506,102.514,1.996563,0.291377,0.017312,0.745856,0.004154,402899,23938.2,0.010535,0.000059,0.017849,0.050162,24680.7,0.000708,3.48372e+07,1.00361e+07,0.288085,1.59729e+06,5.54451e+06,5.77e+06,1.29027e+07,3.71706e+06,3.6254e+07,1.34274e+07,
18.0373,59.4,59.4211,1.000001,59,2390,1.01628e+06,45033.8,5.96212e+07,56627.9,59759.9,0.000052,1.01728e+06,0.044312,0.031382,0.031372,3426.62,3426.76,359.268,1.697535,360.966,0.105285,107.596,105.603,1.996563,0.291271,0.017206,0.745831,0.004129,402752,23791.1,0.010534,0.000058,0.018079,0.050085,24998.8,0.000707,3.53385e+07,1.03385e+07,0.292558,1.64543e+06,5.62429e+06,5.86004e+06,1.30883e+07,3.82909e+06,3.68198e+07,1.36369e+07,
18.296,59.9,59.9385,1.000001,59,2390,1.01272e+06,45859.6,5.96215e+07,56632,59753.9,0.000052,1.01375e+06,0.045284,0.032353,0.032341,3438.54,3438.59,371.078,1.697535,372.776,0.108356,111.307,109.314,1.996563,0.291308,0.017243,0.745840,0.004137,402803,23842.3,0.010534,0.000058,0.018606,0.049910,25727.9,0.000705,3.64947e+07,1.07018e+07,0.293244,1.70325e+06,5.80831e+06,6.05289e+06,1.35166e+07,3.96365e+06,3.80315e+07,1.40857e+07,

File: fabian's hydrogel_25-100_5c min.csv
Time,Sample Temperature,Program Temperature,Frequency,Raw Dynamic Force,Raw Static Force,In-Phase Angle,Out-Of-Phase Angle,Zero Displacement,Min Displacement,Max Displacement,Spring Stiffness,C*,Measured Tan Delta,Corrected Total Tan Delta,Corrected Total Delta,Stiffness*,Total Stiffness',Stiffness Less Spring,Inertia,Sample Stiffness',Ratio of Sample to Total Stiffness,Total Stiffness'',Sample Stiffness'',Total Applied Static Force,Static Force,Static Force Corrected,Static Displacement,Static Displacement Corrected,Static Stress,Static Stress Corrected,Static Strain,Static Strain Corrected,Dynamic Force,Displacement Amplitude,Dynamic Stress,Dynamic Strain,Storage Modulus,Loss Modulus,Tan Delta,Loss Viscosity,Storage Viscosity,Complex Viscosity,Shear Storage Modulus,Shear Loss Modulus,Complex Modulus,Shear Complex Modulus,
0.000000,22.6625,25,1.000001,58,2390,1.01724e+06,34167.1,5.9631e+07,56656.2,59787.5,0.000052,1.01782e+06,0.033588,0.020667,0.020664,3366.77,3367.82,299.732,1.697535,301.43,0.089458,69.6384,67.6454,1.996563,0.292939,0.002013,0.746230,0.000482,1.25766e+06,8644.08,0.011030,0.000007,0.015101,0.050126,64832.1,0.000741,8.75514e+07,1.96479e+07,0.224415,3.12705e+06,1.39342e+07,1.42808e+07,3.24265e+07,7.27698e+06,8.9729e+07,3.3233e+07,
0.864694,24.275,25,1.000001,58,2390,1.01761e+06,33686.9,5.96387e+07,56665.6,59797,0.000052,1.01816e+06,0.033104,0.020183,0.020180,3365.62,3366.71,298.265,1.697535,299.963,0.089052,67.9864,65.9932,1.996563,0.293935,0.003009,0.746469,0.000720,1.26193e+06,12918.9,0.011034,0.000011,0.015032,0.050143,64537.9,0.000741,8.71253e+07,1.9168e+07,0.220005,3.05068e+06,1.38664e+07,1.4198e+07,3.22686e+07,7.09925e+06,8.92089e+07,3.30403e+07,
1.693778,25.225,28.4994,1.000001,58,2390,1.01805e+06,33596.1,5.96436e+07,56669.1,59805.5,0.000052,1.01861e+06,0.033000,0.020079,0.020077,3364.16,3365.25,296.572,1.697535,298.27,0.088588,67.6081,65.6147,1.996563,0.294588,0.003662,0.746625,0.000877,1.26474e+06,15721.3,0.011036,0.000013,0.014954,0.050165,64201.5,0.000742,8.66336e+07,1.9058e+07,0.219985,3.03318e+06,1.37882e+07,1.41178e+07,3.20865e+07,7.05854e+06,8.87051e+07,3.28537e+07,
2.538978,30.175,32.7254,1.000001,58,2390,1.02197e+06,32929.6,5.96481e+07,56666.9,59813.4,0.000052,1.0225e+06,0.032222,0.019301,0.019299,3351.36,3352.49,283.603,1.697535,285.3,0.085058,64.7418,62.7483,1.996563,0.295175,0.004249,0.746765,0.001017,1.26726e+06,18241.9,0.011038,0.000015,0.014358,0.050358,61643.5,0.000744,8.28666e+07,1.82255e+07,0.219938,2.90067e+06,1.31886e+07,1.35038e+07,3.06913e+07,6.75018e+06,8.48472e+07,3.14249e+07,
3.369361,34.6,36.8773,1.000001,58,2390,1.02712e+06,32350.4,5.96538e+07,56666.2,59823.6,0.000052,1.02763e+06,0.031496,0.018576,0.018574,3334.61,3335.77,266.62,1.697535,268.317,0.080395,61.9983,60.0046,1.996563,0.295919,0.004993,0.746943,0.001195,1.27045e+06,21437.5,0.011041,0.000018,0.013571,0.050611,58264.5,0.000748,7.79338e+07,1.74286e+07,0.223633,2.77384e+06,1.24035e+07,1.27099e+07,2.88644e+07,6.45502e+06,7.98588e+07,2.95773e+07,
4.203122,38.9125,41.0461,1.000001,58,2390,1.03291e+06,31767.5,5.96613e+07,56662.9,59840,0.000052,1.0334e+06,0.030755,0.017836,0.017834,3316.01,3317.2,247.704,1.697535,249.401,0.075146,59.1964,57.2024,1.996563,0.296901,0.005975,0.747178,0.001430,1.27467e+06,25651.1,0.011044,0.000021,0.012685,0.050896,54459.9,0.000752,7.24396e+07,1.66147e+07,0.229359,2.6443e+06,1.15291e+07,1.18285e+07,2.68295e+07,6.15358e+06,7.43205e+07,2.75261e+07,
5.009847,42.9625,45.0797,1.000001,56,2390,1.00238e+06,30115.8,5.96703e+07,56719.1,59802.9,0.000052,1.00283e+06,0.030044,0.017125,0.017124,3299.24,3300.46,230.543,1.697535,232.241,0.070330,56.5505,54.5563,1.996563,0.298079,0.007154,0.747460,0.001712,1.27973e+06,30712.1,0.011048,0.000025,0.011463,0.049392,49212.2,0.000730,6.74553e+07,1.58461e+07,0.234913,2.52198e+06,1.07358e+07,1.10281e+07,2.49834e+07,5.86892e+06,6.92915e+07,2.56635e+07,
5.803311,46.9,49.047,1.000001,56,2390,1.00854e+06,29700,5.96803e+07,56719.6,59822.4,0.000052,1.00898e+06,0.029448,0.016530,0.016528,3279.14,3280.37,209.986,1.697535,211.683,0.064497,54.2516,52.2572,1.996563,0.299390,0.008465,0.747773,0.002025,1.28536e+06,36340.5,0.011053,0.000030,0.010512,0.049695,45130.6,0.000735,6.14842e+07,1.51783e+07,0.246865,2.4157e+06,9.7855e+06,1.00793e+07,2.27719e+07,5.62159e+06,6.333e+07,2.34555e+07,
6.607436,51.225,53.0676,1.000001,56,2390,1.01556e+06,28949.4,5.9701e+07,56730.4,59854.6,0.000052,1.01598e+06,0.028506,0.015588,0.015586,3256.56,3257.83,186.472,1.697535,188.17,0.057729,50.8078,48.8126,1.996563,0.302106,0.011181,0.748422,0.002674,1.29702e+06,48001.5,0.011063,0.000040,0.009409,0.050041,40395,0.000740,5.46546e+07,1.41778e+07,0.259408,2.25647e+06,8.69854e+06,8.98645e+06,2.02424e+07,5.25104e+06,5.64636e+07,2.09124e+07,
7.435218,55.375,57.2066,1.000001,56,2390,1.01988e+06,28276.4,5.97074e+07,56728.2,59866.9,0.000052,1.02027e+06,0.027725,0.014808,0.014806,3242.85,3244.14,172.486,1.697535,174.184,0.053664,48.0622,46.0669,1.996563,0.302948,0.012022,0.748623,0.002875,1.30063e+06,51615.5,0.011066,0.000042,0.008746,0.050253,37550.3,0.000743,5.05923e+07,1.33803e+07,0.264473,2.12954e+06,8.05201e+06,8.32885e+06,1.87379e+07,4.95567e+06,5.23318e+07,1.93821e+07,
8.224001,59.15,61.1505,1.000001,56,2390,1.02181e+06,28177.9,5.97144e+07,56732,59875.8,0.000052,1.0222e+06,0.027576,0.014659,0.014658,3236.73,3238.02,166.041,1.697535,167.739,0.051776,47.4896,45.4941,1.996563,0.303869,0.012943,0.748843,0.003095,1.30458e+06,55567.2,0.011069,0.000046,0.008439,0.050348,36229.1,0.000744,4.87203e+07,1.32139e+07,0.271220,2.10306e+06,7.75407e+06,8.03421e+06,1.80446e+07,4.89405e+06,5.04804e+07,1.86965e+07,
9.017986,63.275,65.1204,1.000001,56,2390,1.02361e+06,28538.5,5.9716e+07,56734.5,59880.2,0.000052,1.02401e+06,0.027880,0.014963,0.014961,3231.02,3232.29,160.242,1.697535,161.94,0.050074,48.3878,46.3923,1.996563,0.304067,0.013142,0.748890,0.003142,1.30543e+06,56419.8,0.011069,0.000046,0.008161,0.050437,35038.6,0.000746,4.7036e+07,1.34748e+07,0.286478,2.14458e+06,7.48601e+06,7.78714e+06,1.74208e+07,4.99067e+06,4.89281e+07,1.81215e+07,
9.797931,66.9875,69.0201,1.000001,56,2390,1.02552e+06,28081.4,5.97365e+07,56746.6,59907.4,0.000052,1.0259e+06,0.027383,0.014465,0.014464,3225.05,3226.34,153.326,1.697535,155.024,0.048024,46.693,44.6968,1.996563,0.306766,0.015840,0.749534,0.003786,1.31702e+06,68004.6,0.011079,0.000056,0.007827,0.050531,33604.1,0.000747,4.50272e+07,1.29824e+07,0.288323,2.06621e+06,7.1663e+06,7.45822e+06,1.66767e+07,4.80828e+06,4.68614e+07,1.73561e+07,
10.5888,71.0125,72.9745,1.000001,56,2390,1.02774e+06,27967.6,5.97573e+07,56761.9,59976.5,0.000052,1.02812e+06,0.027213,0.014295,0.014294,3218.1,3219.4,145.412,1.697535,147.109,0.045671,46.046,44.0492,1.996563,0.309496,0.018571,0.750186,0.004437,1.32874e+06,79728,0.011089,0.000066,0.007444,0.050640,31957.2,0.000749,4.27285e+07,1.27942e+07,0.299432,2.03627e+06,6.80044e+06,7.09876e+06,1.58254e+07,4.73861e+06,4.46028e+07,1.65196e+07,
11.402,75.1625,77.0406,1.000001,56,2390,1.02858e+06,27696.6,5.97794e+07,56788.5,59949,0.000052,1.02895e+06,0.026927,0.014010,0.014009,3215.49,3216.79,141.774,1.697535,143.472,0.044577,45.0894,43.0919,1.996563,0.312400,0.021474,0.750878,0.005129,1.34121e+06,92195,0.011099,0.000076,0.007265,0.050681,31192.2,0.000749,4.16719e+07,1.25162e+07,0.300351,1.99202e+06,6.63229e+06,6.92498e+06,1.5434e+07,4.63564e+06,4.3511e+07,1.61152e+07,
12.2111,79.15,81.0859,1.000001,56,2390,1.02949e+06,27576.1,5.97943e+07,56801.9,59965.5,0.000052,1.02986e+06,0.026786,0.013869,0.013868,3212.67,3213.98,138.262,1.697535,139.96,0.043524,44.5977,42.5997,1.996563,0.314362,0.023437,0.751345,0.005597,1.34963e+06,100619,0.011106,0.000083,0.007094,0.050726,30455.3,0.000750,4.06519e+07,1.23733e+07,0.304371,1.96926e+06,6.46994e+06,6.763e+06,1.50563e+07,4.58269e+06,4.24932e+07,1.57382e+07,
13.0061,83.325,85.061,1.000001,56,2390,1.03065e+06,27688.2,5.97979e+07,56806.1,59973.5,0.000052,1.03102e+06,0.026865,0.013948,0.013947,3209.03,3210.33,134.449,1.697535,136.146,0.042386,44.799,42.801,1.996563,0.314831,0.023905,0.751457,0.005708,1.35164e+06,102630,0.011107,0.000084,0.006908,0.050783,29659.1,0.000751,3.95442e+07,1.24317e+07,0.314375,1.97857e+06,6.29365e+06,6.59733e+06,1.4646e+07,4.60434e+06,4.14522e+07,1.53527e+07,
13.8066,87.1875,89.0634,1.000001,56,2390,1.0335e+06,27902,5.97935e+07,56796.2,59975.1,0.000052,1.03388e+06,0.026998,0.014080,0.014079,3200.17,3201.46,125.776,1.697535,127.473,0.039796,45.1,43.1021,1.996563,0.314262,0.023336,0.751321,0.005573,1.3492e+06,100188,0.011105,0.000082,0.006486,0.050924,27846.7,0.000753,3.70251e+07,1.25192e+07,0.338127,1.99249e+06,5.89272e+06,6.22046e+06,1.3713e+07,4.63673e+06,3.90843e+07,1.44757e+07,
14.6175,91.1,93.1179,1.000001,54,2390,1.00567e+06,23385.5,5.97875e+07,56833.6,59927.2,0.000052,1.00594e+06,0.023254,0.010338,0.010338,3171.59,3173,97.5978,1.697535,99.2953,0.031277,32.8197,30.8219,1.996563,0.313466,0.022541,0.751132,0.005383,1.34579e+06,96772.4,0.011103,0.000080,0.004916,0.049550,21104,0.000732,2.88407e+07,8.95235e+06,0.310407,1.42481e+06,4.59014e+06,4.80619e+06,1.06817e+07,3.31568e+06,3.01982e+07,1.11845e+07,
15.4109,95.1125,97.0852,1.000001,54,2390,1.01593e+06,20612.8,5.97739e+07,56804,59926.2,0.000052,1.01614e+06,0.020290,0.007375,0.007375,3139.76,3141.21,66.4515,1.697535,68.149,0.021683,23.1788,21.1815,1.996563,0.311683,0.020757,0.750707,0.004959,1.33813e+06,89116.8,0.011096,0.000073,0.003408,0.050054,14630.7,0.000740,1.97941e+07,6.15224e+06,0.310811,979159,3.15033e+06,3.29899e+06,7.33116e+06,2.27861e+06,2.07282e+07,7.67711e+06,
16.1883,98.8125,100.972,1.000001,54,2390,1.0096e+06,19739.6,5.97634e+07,56795.5,59887.8,0.000052,1.00979e+06,0.019552,0.006638,0.006638,3159.48,3160.98,86.7065,1.697535,88.404,0.027952,20.9927,18.9957,1.996563,0.310302,0.019376,0.750378,0.004629,1.3322e+06,83185.6,0.011091,0.000068,0.004393,0.049742,18860.6,0.000735,2.56773e+07,5.51738e+06,0.214874,878117,4.08666e+06,4.17994e+06,9.51011e+06,2.04347e+06,2.62634e+07,9.72717e+06,
16.3222,99.5125,101.641,1.000001,54,2390,1.00729e+06,20321.6,5.97613e+07,56792.6,59882.9,0.000052,1.00749e+06,0.020175,0.007260,0.007260,3166.7,3168.18,94.0126,1.697535,95.7101,0.030194,23.0136,21.0166,1.996563,0.310018,0.019093,0.750310,0.004562,1.33098e+06,81969,0.011090,0.000067,0.004745,0.049628,20372.9,0.000734,2.77994e+07,6.10437e+06,0.219586,971539,4.4244e+06,4.52982e+06,1.02961e+07,2.26088e+06,2.84617e+07,1.05414e+07,